Folder: Thesis/Data

Note: README.md
# Thesis
Master thesis repository

This is a master thesis project by Esben JÃ¸rgensen Bager and Skipper af Rosenborg

File: Concrete_Data.csv
Cement (component 1)(kg in a m^3 mixture),Blast Furnace Slag (component 2)(kg in a m^3 mixture),Fly Ash (component 3)(kg in a m^3 mixture),Water  (component 4)(kg in a m^3 mixture),Superplasticizer (component 5)(kg in a m^3 mixture),Coarse Aggregate  (component 6)(kg in a m^3 mixture),Fine Aggregate (component 7)(kg in a m^3 mixture),Age (day),"Concrete compressive strength(MPa, megapascals) "
540.00,0.00,0.00,162.00,2.50,1040.00,676.00,28.00,79.99
380.00,95.00,0.00,228.00,0.00,932.00,594.00,365.00,43.70
427.50,47.50,0.00,228.00,0.00,932.00,594.00,270.00,43.01
380.00,95.00,0.00,228.00,0.00,932.00,594.00,90.00,40.56
380.00,0.00,0.00,228.00,0.00,932.00,670.00,365.00,52.52
304.00,76.00,0.00,228.00,0.00,932.00,670.00,365.00,55.26
237.50,237.50,0.00,228.00,0.00,932.00,594.00,28.00,30.08
237.50,237.50,0.00,228.00,0.00,932.00,594.00,365.00,39.00
237.50,237.50,0.00,228.00,0.00,932.00,594.00,7.00,26.26
139.60,209.40,0.00,192.00,0.00,1047.00,806.90,7.00,14.59
304.00,76.00,0.00,228.00,0.00,932.00,670.00,270.00,54.38
139.60,209.40,0.00,192.00,0.00,1047.00,806.90,360.00,44.70
425.00,106.30,0.00,153.50,16.50,852.10,887.10,3.00,33.40
388.60,97.10,0.00,157.90,12.10,852.10,925.70,3.00,28.10
323.70,282.80,0.00,183.80,10.30,942.70,659.90,3.00,28.30
389.90,189.00,0.00,145.90,22.00,944.70,755.80,3.00,40.60
425.00,106.30,0.00,151.40,18.60,936.00,803.70,7.00,46.80
531.30,0.00,0.00,141.80,28.20,852.10,893.70,7.00,46.90
379.50,151.20,0.00,153.90,15.90,1134.30,605.00,7.00,47.10
362.60,189.00,0.00,164.90,11.60,944.70,755.80,7.00,22.90
375.00,93.80,0.00,126.60,23.40,852.10,992.60,28.00,56.70
425.00,106.30,0.00,153.50,16.50,852.10,887.10,28.00,60.29
362.60,189.00,0.00,164.90,11.60,944.70,755.80,28.00,71.30
337.90,189.00,0.00,174.90,9.50,944.70,755.80,28.00,49.90
475.00,118.80,0.00,181.10,8.90,852.10,781.50,56.00,72.30
318.80,212.50,0.00,155.70,14.30,852.10,880.40,56.00,66.10
286.30,200.90,0.00,144.70,11.20,1004.60,803.70,56.00,72.99
374.00,189.20,0.00,170.10,10.10,926.10,756.70,91.00,64.90
469.00,117.20,0.00,137.80,32.20,852.10,840.50,91.00,70.70
401.80,94.70,0.00,147.40,11.40,946.80,852.10,91.00,75.50
439.00,177.00,0.00,186.00,11.10,884.90,707.90,91.00,73.30
222.36,0.00,96.67,189.29,4.46,967.08,870.32,28.00,24.89
233.81,0.00,94.58,197.89,4.57,947.04,852.16,56.00,27.66
194.68,0.00,100.52,165.62,7.48,1006.40,905.90,100.00,37.34
212.07,0.00,121.62,180.31,5.69,1057.60,779.32,3.00,12.47
229.97,0.00,118.31,195.47,4.63,1029.40,758.59,14.00,20.08
190.34,0.00,125.18,161.85,9.88,1088.10,802.59,28.00,28.47
166.09,0.00,163.27,176.46,4.49,1058.60,780.09,56.00,28.63
167.95,42.08,163.83,121.75,5.72,1058.70,780.11,100.00,39.23
213.76,98.06,24.52,181.74,6.65,1066.00,785.52,3.00,13.18
229.68,0.00,118.16,195.23,6.13,1028.10,757.63,14.00,22.32
238.05,0.00,94.11,186.66,7.00,949.91,847.01,28.00,30.23
250.00,0.00,95.69,187.42,5.53,956.86,861.17,56.00,38.33
212.52,0.00,100.37,159.32,8.71,1007.80,903.59,100.00,42.92
212.00,0.00,124.78,159.00,7.84,1085.40,799.54,3.00,19.52
231.75,0.00,121.62,173.96,6.72,1056.40,778.45,14.00,26.77
251.37,0.00,118.27,188.45,5.75,1028.40,757.73,28.00,29.65
251.37,0.00,118.27,188.45,6.35,1028.40,757.73,56.00,36.64
181.38,0.00,167.01,169.59,7.56,1055.60,777.80,100.00,45.37
168.88,42.22,124.25,158.33,10.83,1080.80,796.15,3.00,7.40
290.35,0.00,96.18,168.08,9.41,961.18,865.00,14.00,34.67
277.05,0.00,97.39,160.60,11.83,973.90,875.61,28.00,48.28
295.71,0.00,95.64,171.54,8.87,955.14,859.20,56.00,48.72
251.81,0.00,99.94,146.14,12.35,1006.00,899.76,100.00,45.37
252.31,0.00,98.75,146.25,14.17,987.76,889.01,3.00,21.78
246.83,0.00,125.08,143.30,11.99,1086.80,800.89,14.00,42.22
275.07,0.00,121.35,159.48,9.90,1053.60,777.50,28.00,51.33
297.16,0.00,117.54,174.80,9.52,1022.80,753.45,56.00,51.96
213.74,0.00,174.74,154.79,10.16,1053.50,776.35,100.00,50.08
277.19,97.82,24.46,160.70,11.19,1061.70,782.46,3.00,30.45
218.23,54.64,123.78,140.75,11.91,1075.70,792.67,14.00,35.96
214.90,53.80,121.89,155.63,9.61,1014.30,780.58,28.00,52.20
218.85,0.00,124.13,158.49,11.33,1078.70,794.91,56.00,37.27
376.00,0.00,0.00,214.60,0.00,1003.50,762.36,100.00,43.06
516.00,0.00,0.00,162.00,8.20,801.00,802.00,28.00,41.37
450.10,50.00,0.00,200.00,3.00,1124.40,613.20,28.00,39.38
516.00,0.00,0.00,162.00,8.26,801.00,802.00,28.00,41.37
285.00,190.00,0.00,163.00,7.60,1031.00,685.00,28.00,53.58
178.03,129.80,118.60,179.94,3.57,1007.30,746.80,3.00,20.73
190.34,0.00,125.18,166.61,9.88,1079.00,798.90,3.00,12.55
165.00,128.50,132.10,175.06,8.08,1005.80,746.60,14.00,33.09
173.81,93.37,159.90,172.34,9.73,1007.20,746.60,14.00,29.55
165.00,0.02,143.57,163.81,0.00,1005.60,900.90,28.00,26.20
167.00,75.40,167.00,164.03,7.91,1007.30,770.10,28.00,41.41
251.37,0.00,118.27,192.94,5.75,1043.60,754.30,28.00,33.27
173.54,50.05,173.53,164.77,6.47,1006.20,793.50,56.00,53.77
194.68,0.00,100.52,170.17,7.48,998.00,901.80,56.00,43.39
172.38,13.61,172.37,156.76,4.14,1006.30,856.40,100.00,37.68
213.50,0.00,174.24,159.21,11.66,1043.60,771.90,100.00,52.96
446.00,24.00,79.00,162.00,10.30,967.00,712.00,28.00,53.39
446.00,24.00,79.00,162.00,11.64,967.00,712.00,7.00,39.30
387.00,20.00,94.00,157.00,13.93,938.00,845.00,28.00,46.68
387.00,20.00,94.00,157.00,13.93,938.00,845.00,7.00,45.90
355.00,19.00,97.00,145.00,12.25,967.00,871.00,28.00,55.45
491.00,26.00,123.00,201.00,3.93,822.00,699.00,3.00,29.55
424.00,22.00,132.00,178.00,8.48,822.00,750.00,7.00,39.00
202.00,11.00,141.00,206.00,1.72,942.00,801.00,3.00,9.85
284.00,15.00,141.00,179.00,5.46,842.00,801.00,56.00,44.52
359.00,19.00,141.00,154.00,10.91,942.00,801.00,7.00,38.61
393.00,0.00,0.00,192.00,0.00,940.60,785.60,3.00,19.20
480.00,0.00,0.00,192.00,0.00,936.20,712.20,3.00,24.40
333.00,0.00,0.00,192.00,0.00,931.20,842.60,28.00,31.97
158.80,238.20,0.00,185.70,0.00,1040.60,734.30,7.00,9.62
272.80,181.90,0.00,185.70,0.00,1012.40,714.30,7.00,19.77
158.80,238.20,0.00,185.70,0.00,1040.60,734.30,28.00,21.07
295.80,0.00,0.00,185.70,0.00,1091.40,769.30,28.00,25.22
339.20,0.00,0.00,185.70,0.00,1069.20,754.30,7.00,21.18
170.30,155.50,0.00,185.70,0.00,1026.60,724.30,28.00,25.73
186.20,124.10,0.00,185.70,0.00,1083.40,764.30,7.00,8.00
316.10,210.70,0.00,185.70,0.00,977.00,689.30,7.00,24.44
339.00,0.00,0.00,197.00,0.00,968.00,781.00,14.00,27.04
236.00,0.00,0.00,194.00,0.00,968.00,885.00,14.00,12.84
277.00,0.00,0.00,191.00,0.00,968.00,856.00,28.00,25.97
254.00,0.00,0.00,198.00,0.00,968.00,863.00,90.00,26.94
307.00,0.00,0.00,193.00,0.00,968.00,812.00,28.00,27.53
225.00,0.00,0.00,181.00,0.00,1113.00,833.00,28.00,17.34
300.00,0.00,0.00,184.00,0.00,1075.00,795.00,28.00,26.85
250.00,0.00,0.00,182.00,0.00,1100.00,820.00,28.00,20.87
141.30,212.00,0.00,203.50,0.00,971.80,748.50,28.00,29.89
122.60,183.90,0.00,203.50,0.00,958.20,800.10,28.00,24.29
116.00,173.00,0.00,192.00,0.00,909.80,891.90,90.00,31.02
192.00,288.00,0.00,192.00,0.00,929.80,716.10,3.00,12.79
173.00,116.00,0.00,192.00,0.00,946.80,856.80,3.00,6.94
288.00,192.00,0.00,192.00,0.00,932.00,717.80,28.00,38.80
192.00,288.00,0.00,192.00,0.00,929.80,716.10,90.00,50.73
288.00,192.00,0.00,192.00,0.00,932.00,717.80,7.00,23.52
183.90,122.60,0.00,203.50,0.00,959.20,800.00,7.00,10.79
200.00,133.00,0.00,192.00,0.00,965.40,806.20,7.00,17.17
116.00,173.00,0.00,192.00,0.00,909.80,891.90,3.00,6.28
153.00,102.00,0.00,192.00,0.00,888.00,943.10,7.00,8.37
203.50,305.30,0.00,203.50,0.00,963.40,630.00,90.00,51.86
331.00,0.00,0.00,192.00,0.00,1025.00,821.00,3.00,14.31
349.00,0.00,0.00,192.00,0.00,1056.00,809.00,7.00,9.01
296.00,0.00,0.00,186.00,0.00,1090.00,769.00,7.00,18.91
281.00,0.00,0.00,186.00,0.00,1104.00,774.00,7.00,14.50
500.00,0.00,0.00,200.00,0.00,1125.00,613.00,28.00,44.09
540.00,0.00,0.00,173.00,0.00,1125.00,613.00,270.00,74.17
350.00,0.00,0.00,203.00,0.00,974.00,775.00,180.00,32.72
331.00,0.00,0.00,192.00,0.00,978.00,825.00,180.00,39.00
382.00,0.00,0.00,186.00,0.00,1111.00,784.00,7.00,11.47
238.00,0.00,0.00,185.00,0.00,1118.00,789.00,28.00,17.54
331.00,0.00,0.00,192.00,0.00,978.00,825.00,28.00,31.45
349.00,0.00,0.00,192.00,0.00,1047.00,806.00,360.00,42.13
500.00,0.00,0.00,200.00,0.00,1125.00,613.00,270.00,55.16
393.00,0.00,0.00,192.00,0.00,940.00,758.00,28.00,39.58
310.00,0.00,0.00,192.00,0.00,970.00,850.00,7.00,14.99
525.00,0.00,0.00,189.00,0.00,1125.00,613.00,7.00,42.42
322.00,0.00,0.00,203.00,0.00,974.00,800.00,28.00,25.18
522.00,0.00,0.00,146.00,0.00,896.00,896.00,28.00,74.99
310.00,143.00,111.00,168.00,22.00,914.00,651.00,28.00,33.69
310.00,143.00,0.00,168.00,10.00,914.00,804.00,28.00,45.30
366.00,187.00,0.00,191.00,7.00,824.00,757.00,28.00,65.91
298.00,0.00,107.00,186.00,6.00,879.00,815.00,28.00,42.64
322.00,149.00,0.00,186.00,8.00,951.00,709.00,28.00,52.42
298.00,0.00,107.00,210.00,11.00,880.00,744.00,28.00,31.87
149.00,139.00,109.00,193.00,6.00,892.00,780.00,28.00,23.69
146.00,230.00,0.00,202.00,3.00,827.00,872.00,28.00,33.06
140.00,133.00,103.00,200.00,7.00,916.00,753.00,28.00,36.44
153.00,145.00,0.00,178.00,8.00,1000.00,822.00,28.00,19.01
143.00,169.00,143.00,191.00,8.00,967.00,643.00,28.00,29.72
150.00,237.00,0.00,174.00,12.00,1069.00,675.00,28.00,37.43
266.00,112.00,87.00,178.00,10.00,910.00,745.00,28.00,39.42
277.00,117.00,91.00,191.00,7.00,946.00,666.00,28.00,43.57
145.00,0.00,179.00,202.00,8.00,824.00,869.00,28.00,10.54
136.00,196.00,98.00,199.00,6.00,847.00,783.00,28.00,26.97
159.00,209.00,161.00,201.00,7.00,848.00,669.00,28.00,30.88
236.90,91.70,71.50,246.90,6.00,852.90,695.40,28.00,28.63
313.30,145.00,0.00,178.50,8.00,867.20,824.00,28.00,40.93
153.10,145.00,113.00,178.50,8.00,867.20,824.00,28.00,26.23
150.70,0.00,185.30,166.70,15.60,1074.50,678.00,28.00,13.46
284.00,119.70,0.00,168.30,7.20,970.40,794.20,28.00,40.93
154.80,0.00,142.80,193.30,9.10,1047.40,696.70,28.00,12.46
145.70,172.60,0.00,181.90,3.40,985.80,816.80,28.00,23.74
155.20,183.90,143.20,193.80,9.20,879.60,698.50,28.00,28.99
154.80,0.00,142.80,193.30,9.10,877.20,867.70,28.00,9.74
151.80,178.10,138.70,167.50,18.30,944.00,694.60,28.00,36.35
152.60,238.70,0.00,200.00,6.30,1001.80,683.90,28.00,26.86
321.30,164.20,0.00,190.50,4.60,870.00,774.00,28.00,57.22
160.20,188.00,146.40,203.20,11.30,828.70,709.70,28.00,35.31
132.00,206.50,160.90,178.90,5.50,866.90,735.60,28.00,33.31
288.40,121.00,0.00,177.40,7.00,907.90,829.50,28.00,42.14
322.20,0.00,115.60,196.00,10.40,817.90,813.40,28.00,31.18
260.90,100.50,78.30,200.60,8.60,864.50,761.50,28.00,32.40